s11,s12,s13,s14,s15,s16,s17,s18,s21,s22,s23,s24,s25,s26,s27,s28,IngsInRow,IngIn1,IngIn2,ingredientforslider,VegQuestionLoop.thisRepN,VegQuestionLoop.thisTrialN,VegQuestionLoop.thisN,VegQuestionLoop.thisIndex,trials.thisRepN,trials.thisTrialN,trials.thisN,trials.thisIndex,Iter.thisRepN,Iter.thisTrialN,Iter.thisN,Iter.thisIndex,BreakConditional.thisRepN,BreakConditional.thisTrialN,BreakConditional.thisN,BreakConditional.thisIndex,RatingLoop.thisRepN,RatingLoop.thisTrialN,RatingLoop.thisN,RatingLoop.thisIndex,TextHeader.started,TextHeader.stopped,InfoSheetTxt.started,InfoSheetTxt.stopped,key_resp_4.keys,key_resp_4.rt,key_resp_4.started,key_resp_4.stopped,MainInstruction.started,MainInstruction.stopped,MainInstruction_2.started,MainInstruction_2.stopped,VegQuestionText.started,VegQuestionText.stopped,VegResp.keys,VegResp.rt,VegResp.started,VegResp.stopped,text.started,text.stopped,ConfirmResp.keys,ConfirmResp.rt,ConfirmResp.started,ConfirmResp.stopped,Decision.keys,Decision.rt,Decision.started,Decision.stopped,Sandwich1.started,Sandwich1.stopped,Or.started,Or.stopped,Sandwich2.started,Sandwich2.stopped,Instr.started,Instr.stopped,Ingredients1.started,Ingredients1.stopped,Ingredients2.started,Ingredients2.stopped,InstructionEndOfTrial.started,InstructionEndOfTrial.stopped,TrialCounter.started,TrialCounter.stopped,BreakText.started,BreakText.stopped,RatingInstrText.started,RatingInstrText.stopped,key_resp_2.keys,key_resp_2.rt,key_resp_2.started,key_resp_2.stopped,SliderDescription.started,SliderDescription.stopped,slider.response,slider.rt,slider.started,slider.stopped,key_resp_3.keys,key_resp_3.rt,key_resp_3.started,key_resp_3.stopped,text_2.started,text_2.stopped,key_resp.keys,key_resp.rt,key_resp.started,key_resp.stopped,sequence,participant,date,expName,psychopyVersion,frameRate,
,,,,,,,,,,,,,,,,,,,,,,,,,,,,,,,,,,,,,,,,161.42661720000615,None,167.75173230000655,None,space,1.5554193999996642,167.75173230000655,None,,,,,,,,,,,,,,,,,,,,,,,,,,,,,,,,,,,,,,,,,,,,,,,,,,,,,,,,,,,,,,Demo Data,2020_Mar_19_1027,trial,3.2.4,59.92455498806974,
,,,,,,,,,,,,,,,,,,,,0,0,0,0,,,,,,,,,,,,,,,,,,,,,,,,,169.33500510000158,None,170.9014051999984,None,174.102312300005,None,n,4.503520699989167,174.102312300005,None,178.68454190000193,None,q,0.7326399000012316,178.68454190000193,None,,,,,,,,,,,,,,,,,,,,,,,,,,,,,,,,,,,,,,,,,,,,,,Demo Data,2020_Mar_19_1027,trial,3.2.4,59.92455498806974,
,,,,,,,,,,,,,,,,,,,,1,0,1,0,,,,,,,,,,,,,,,,,,,,,,,,,,,,,179.44813370000338,None,n,0.5914704000024358,179.44813370000338,None,180.06737430000794,None,p,0.8675227999920025,180.06737430000794,None,,,,,,,,,,,,,,,,,,,,,,,,,,,,,,,,,,,,,,,,,,,,,,Demo Data,2020_Mar_19_1027,trial,3.2.4,59.92455498806974,
Bell peppers,Provolone cheese,Cucumbers,Spinach,Tomatoes,Onions,Hummus,None,Roast beef,Bacon,Turkey,Mayonnaise,None,None,None,None,7,7,4,,,,,,0,0,0,45,0,0,0,0,,,,,,,,,,,,,,,,,,,,,,,,,,,,,,,,,['space'],[0.551779900008114],183.36434149999695,None,182.65806610000436,None,182.65806610000436,None,182.65806610000436,None,182.65806610000436,None,182.65806610000436,None,182.65806610000436,None,182.65806610000436,None,182.65806610000436,None,,,,,,,,,,,,,,,,,,,,,,,,,,Demo Data,2020_Mar_19_1027,trial,3.2.4,59.92455498806974,
Bell peppers,Provolone cheese,Cucumbers,Spinach,Tomatoes,Onions,Hummus,None,Roast beef,Bacon,Turkey,Mayonnaise,None,None,None,None,7,7,4,,,,,,0,0,0,45,1,0,1,0,,,,,,,,,,,,,,,,,,,,,,,,,,,,,,,,,['space'],[0.1322465999983251],184.7974838000082,None,184.06304100000125,None,184.06304100000125,None,184.06304100000125,None,184.06304100000125,None,184.06304100000125,None,184.06304100000125,None,184.06304100000125,None,184.06304100000125,None,,,,,,,,,,,,,,,,,,,,,,,,,,Demo Data,2020_Mar_19_1027,trial,3.2.4,59.92455498806974,
Bell peppers,Provolone cheese,Cucumbers,Spinach,Tomatoes,Onions,Hummus,None,Roast beef,Bacon,Turkey,Mayonnaise,None,None,None,None,7,7,4,,,,,,0,0,0,45,2,0,2,0,,,,,,,,,,,,,,,,,,,,,,,,,,,,,,,,,['l'],[0.16679560000193305],185.8141309000057,None,185.07961169999908,None,185.07961169999908,None,185.07961169999908,None,185.07961169999908,None,185.07961169999908,None,185.07961169999908,None,185.07961169999908,None,185.07961169999908,None,,,,,,,,,,,,,,,,,,,,,,,,,,Demo Data,2020_Mar_19_1027,trial,3.2.4,59.92455498806974,
Steak,Turkey,Ham,Cheddar cheese,Olives,Lettuce,Tomatoes,Onions,Chicken,Swiss cheese,Lettuce,Tomatoes,Onions,None,None,None,8,8,5,,,,,,0,1,1,38,0,0,0,0,,,,,,,,,,,,,,,,,,,,,,,,,,,,,,,,,['space'],[0.04103120000218041],186.8639014000073,None,186.11830349999946,None,186.11830349999946,None,186.11830349999946,None,186.11830349999946,None,186.11830349999946,None,186.11830349999946,None,186.11830349999946,None,186.11830349999946,None,,,,,,,,,,,,,,,,,,,,,,,,,,Demo Data,2020_Mar_19_1027,trial,3.2.4,59.92455498806974,
Steak,Turkey,Ham,Cheddar cheese,Olives,Lettuce,Tomatoes,Onions,Chicken,Swiss cheese,Lettuce,Tomatoes,Onions,None,None,None,8,8,5,,,,,,0,1,1,38,1,0,1,0,,,,,,,,,,,,,,,,,,,,,,,,,,,,,,,,,['space'],[0.03962660000252072],187.78040830000828,None,187.05634999999893,None,187.05634999999893,None,187.05634999999893,None,187.05634999999893,None,187.05634999999893,None,187.05634999999893,None,187.05634999999893,None,187.05634999999893,None,,,,,,,,,,,,,,,,,,,,,,,,,,Demo Data,2020_Mar_19_1027,trial,3.2.4,59.92455498806974,
Steak,Turkey,Ham,Cheddar cheese,Olives,Lettuce,Tomatoes,Onions,Chicken,Swiss cheese,Lettuce,Tomatoes,Onions,None,None,None,8,8,5,,,,,,0,1,1,38,2,0,2,0,,,,,,,,,,,,,,,,,,,,,,,,,,,,,,,,,['l'],[0.07030779999331571],188.6970091999974,None,187.96145299999625,None,187.96145299999625,None,187.96145299999625,None,187.96145299999625,None,187.96145299999625,None,187.96145299999625,None,187.96145299999625,None,187.96145299999625,None,,,,,,,,,,,,,,,,,,,,,,,,,,Demo Data,2020_Mar_19_1027,trial,3.2.4,59.92455498806974,
Bacon,Lettuce,Tomatoes,Ranch dressing,None,None,None,None,Chicken,Bacon,Mustard,None,None,None,None,None,4,4,3,,,,,,0,2,2,76,0,0,0,0,,,,,,,,,,,,,,,,,,,,,,,,,,,,,,,,,['space'],[0.13159789999190252],189.6635346999974,None,188.92425830000138,None,188.92425830000138,None,188.92425830000138,None,188.92425830000138,None,188.92425830000138,None,188.92425830000138,None,188.92425830000138,None,188.92425830000138,None,,,,,,,,,,,,,,,,,,,,,,,,,,Demo Data,2020_Mar_19_1027,trial,3.2.4,59.92455498806974,
Bacon,Lettuce,Tomatoes,Ranch dressing,None,None,None,None,Chicken,Bacon,Mustard,None,None,None,None,None,4,4,3,,,,,,0,2,2,76,1,0,1,0,,,,,,,,,,,,,,,,,,,,,,,,,,,,,,,,,['a'],[0.11249959999986459],190.68008109999937,None,189.93449250000413,None,189.93449250000413,None,189.93449250000413,None,189.93449250000413,None,189.93449250000413,None,189.93449250000413,None,189.93449250000413,None,189.93449250000413,None,,,,,,,,,,,,,,,,,,,,,,,,,,Demo Data,2020_Mar_19_1027,trial,3.2.4,59.92455498806974,
Pork,Cucumbers,Pickles,Jalapenos,Basil,Mayonnaise,None,None,Turkey,Cheddar cheese,Bacon,None,None,None,None,None,6,6,3,,,,,,0,3,3,61,0,0,0,0,,,,,,,,,,,,,,,,,,,,,,,,,,,,,,,,,['space'],[0.4751316999900155],191.6798140000028,None,190.9279702000058,None,190.9279702000058,None,190.9279702000058,None,190.9279702000058,None,190.9279702000058,None,190.9279702000058,None,190.9279702000058,None,190.9279702000058,None,,,,,,,,,,,,,,,,,,,,,,,,,,Demo Data,2020_Mar_19_1027,trial,3.2.4,59.92455498806974,
Pork,Cucumbers,Pickles,Jalapenos,Basil,Mayonnaise,None,None,Turkey,Cheddar cheese,Bacon,None,None,None,None,None,6,6,3,,,,,,0,3,3,61,1,0,1,0,,,,,,,,,,,,,,,,,,,,,,,,,,,,,,,,,['space'],[0.2047619999939343],193.0318016000092,None,192.29211969999596,None,192.29211969999596,None,192.29211969999596,None,192.29211969999596,None,192.29211969999596,None,192.29211969999596,None,192.29211969999596,None,192.29211969999596,None,,,,,,,,,,,,,,,,,,,,,,,,,,Demo Data,2020_Mar_19_1027,trial,3.2.4,59.92455498806974,
Pork,Cucumbers,Pickles,Jalapenos,Basil,Mayonnaise,None,None,Turkey,Cheddar cheese,Bacon,None,None,None,None,None,6,6,3,,,,,,0,3,3,61,2,0,2,0,,,,,,,,,,,,,,,,,,,,,,,,,,,,,,,,,['space'],[0.12672440000460483],194.12960310000926,None,193.40307640000538,None,193.40307640000538,None,193.40307640000538,None,193.40307640000538,None,193.40307640000538,None,193.40307640000538,None,193.40307640000538,None,193.40307640000538,None,,,,,,,,,,,,,,,,,,,,,,,,,,Demo Data,2020_Mar_19_1027,trial,3.2.4,59.92455498806974,
Pork,Cucumbers,Pickles,Jalapenos,Basil,Mayonnaise,None,None,Turkey,Cheddar cheese,Bacon,None,None,None,None,None,6,6,3,,,,,,0,3,3,61,3,0,3,0,,,,,,,,,,,,,,,,,,,,,,,,,,,,,,,,,['l'],[0.1989873999991687],195.12960369999928,None,194.39689089999592,None,194.39689089999592,None,194.39689089999592,None,194.39689089999592,None,194.39689089999592,None,194.39689089999592,None,194.39689089999592,None,194.39689089999592,None,,,,,,,,,,,,,,,,,,,,,,,,,,Demo Data,2020_Mar_19_1027,trial,3.2.4,59.92455498806974,
Meatballs,Provolone cheese,Marinara sauce,Parmesan cheese,None,None,None,None,Turkey,Cheddar cheese,Bacon,None,None,None,None,None,4,4,3,,,,,,0,4,4,23,0,0,0,0,,,,,,,,,,,,,,,,,,,,,,,,,,,,,,,,,['space'],[0.4059743999969214],196.22937169999932,None,195.47871640000085,None,195.47871640000085,None,195.47871640000085,None,195.47871640000085,None,195.47871640000085,None,195.47871640000085,None,195.47871640000085,None,195.47871640000085,None,,,,,,,,,,,,,,,,,,,,,,,,,,Demo Data,2020_Mar_19_1027,trial,3.2.4,59.92455498806974,
Meatballs,Provolone cheese,Marinara sauce,Parmesan cheese,None,None,None,None,Turkey,Cheddar cheese,Bacon,None,None,None,None,None,4,4,3,,,,,,0,4,4,23,1,0,1,0,,,,,,,,,,,,,,,,,,,,,,,,,,,,,,,,,['space'],[0.11258669999369886],197.52907910000067,None,196.79214350000257,None,196.79214350000257,None,196.79214350000257,None,196.79214350000257,None,196.79214350000257,None,196.79214350000257,None,196.79214350000257,None,196.79214350000257,None,,,,,,,,,,,,,,,,,,,,,,,,,,Demo Data,2020_Mar_19_1027,trial,3.2.4,59.92455498806974,
Meatballs,Provolone cheese,Marinara sauce,Parmesan cheese,None,None,None,None,Turkey,Cheddar cheese,Bacon,None,None,None,None,None,4,4,3,,,,,,0,4,4,23,2,0,2,0,,,,,,,,,,,,,,,,,,,,,,,,,,,,,,,,,['space'],[0.05579679999209475],198.52919100000872,None,197.79009940000833,None,197.79009940000833,None,197.79009940000833,None,197.79009940000833,None,197.79009940000833,None,197.79009940000833,None,197.79009940000833,None,197.79009940000833,None,,,,,,,,,,,,,,,,,,,,,,,,,,Demo Data,2020_Mar_19_1027,trial,3.2.4,59.92455498806974,
Meatballs,Provolone cheese,Marinara sauce,Parmesan cheese,None,None,None,None,Turkey,Cheddar cheese,Bacon,None,None,None,None,None,4,4,3,,,,,,0,4,4,23,3,0,3,0,,,,,,,,,,,,,,,,,,,,,,,,,,,,,,,,,['l'],[0.3117861000064295],199.47889410000062,None,198.7450802000094,None,198.7450802000094,None,198.7450802000094,None,198.7450802000094,None,198.7450802000094,None,198.7450802000094,None,198.7450802000094,None,198.7450802000094,None,,,,,,,,,,,,,,,,,,,,,,,,,,Demo Data,2020_Mar_19_1027,trial,3.2.4,59.92455498806974,
Avocado,Onions,Cucumbers,None,None,None,None,None,Meatballs,Provolone cheese,Marinara sauce,Parmesan cheese,None,None,None,None,4,3,4,,,,,,0,5,5,67,0,0,0,0,,,,,,,,,,,,,,,,,,,,,,,,,,,,,,,,,['space'],[0.010250000006635673],200.66199790000974,None,199.93490229999588,None,199.93490229999588,None,199.93490229999588,None,199.93490229999588,None,199.93490229999588,None,199.93490229999588,None,199.93490229999588,None,199.93490229999588,None,,,,,,,,,,,,,,,,,,,,,,,,,,Demo Data,2020_Mar_19_1027,trial,3.2.4,59.92455498806974,
Avocado,Onions,Cucumbers,None,None,None,None,None,Meatballs,Provolone cheese,Marinara sauce,Parmesan cheese,None,None,None,None,4,3,4,,,,,,0,5,5,67,1,0,1,0,,,,,,,,,,,,,,,,,,,,,,,,,,,,,,,,,['space'],[0.17697640000551473],201.56202260000282,None,200.8218443000078,None,200.8218443000078,None,200.8218443000078,None,200.8218443000078,None,200.8218443000078,None,200.8218443000078,None,200.8218443000078,None,200.8218443000078,None,,,,,,,,,,,,,,,,,,,,,,,,,,Demo Data,2020_Mar_19_1027,trial,3.2.4,59.92455498806974,
Avocado,Onions,Cucumbers,None,None,None,None,None,Meatballs,Provolone cheese,Marinara sauce,Parmesan cheese,None,None,None,None,4,3,4,,,,,,0,5,5,67,2,0,2,0,,,,,,,,,,,,,,,,,,,,,,,,,,,,,,,,,['l'],[0.10887159999401774],202.61181420000503,None,201.88222909999604,None,201.88222909999604,None,201.88222909999604,None,201.88222909999604,None,201.88222909999604,None,201.88222909999604,None,201.88222909999604,None,201.88222909999604,None,,,,,,,,,,,,,,,,,,,,,,,,,,Demo Data,2020_Mar_19_1027,trial,3.2.4,59.92455498806974,
Roast beef,Turkey,Pastrami,Mayonnaise,Provolone cheese,None,None,None,Ham,Swiss cheese,Spinach,Mustard,None,None,None,None,5,5,4,,,,,,0,6,6,55,0,0,0,0,,,,,,,,,,,,,,,,,,,,,,,,,,,,,,,,,['space'],[0.4552842000121018],203.61149429999932,None,202.8638487999997,None,202.8638487999997,None,202.8638487999997,None,202.8638487999997,None,202.8638487999997,None,202.8638487999997,None,202.8638487999997,None,202.8638487999997,None,,,,,,,,,,,,,,,,,,,,,,,,,,Demo Data,2020_Mar_19_1027,trial,3.2.4,59.92455498806974,
Roast beef,Turkey,Pastrami,Mayonnaise,Provolone cheese,None,None,None,Ham,Swiss cheese,Spinach,Mustard,None,None,None,None,5,5,4,,,,,,0,6,6,55,1,0,1,0,,,,,,,,,,,,,,,,,,,,,,,,,,,,,,,,,['space'],[0.13223869999637827],204.96157230000244,None,204.21844989999954,None,204.21844989999954,None,204.21844989999954,None,204.21844989999954,None,204.21844989999954,None,204.21844989999954,None,204.21844989999954,None,204.21844989999954,None,,,,,,,,,,,,,,,,,,,,,,,,,,Demo Data,2020_Mar_19_1027,trial,3.2.4,59.92455498806974,
Roast beef,Turkey,Pastrami,Mayonnaise,Provolone cheese,None,None,None,Ham,Swiss cheese,Spinach,Mustard,None,None,None,None,5,5,4,,,,,,0,6,6,55,2,0,2,0,,,,,,,,,,,,,,,,,,,,,,,,,,,,,,,,,['l'],[0.10293729999102652],205.99472790000436,None,205.26401530001021,None,205.26401530001021,None,205.26401530001021,None,205.26401530001021,None,205.26401530001021,None,205.26401530001021,None,205.26401530001021,None,205.26401530001021,None,,,,,,,,,,,,,,,,,,,,,,,,,,Demo Data,2020_Mar_19_1027,trial,3.2.4,59.92455498806974,
Meatballs,Provolone cheese,Onions,Marinara sauce,None,None,None,None,Chicken,Pepper jack cheese,Ranch dressing,None,None,None,None,None,4,4,3,,,,,,0,7,7,25,0,0,0,0,,,,,,,,,,,,,,,,,,,,,,,,,,,,,,,,,['space'],[0.023330999989411794],206.99467390000063,None,206.24722499999916,None,206.24722499999916,None,206.24722499999916,None,206.24722499999916,None,206.24722499999916,None,206.24722499999916,None,206.24722499999916,None,206.24722499999916,None,,,,,,,,,,,,,,,,,,,,,,,,,,Demo Data,2020_Mar_19_1027,trial,3.2.4,59.92455498806974,
Meatballs,Provolone cheese,Onions,Marinara sauce,None,None,None,None,Chicken,Pepper jack cheese,Ranch dressing,None,None,None,None,None,4,4,3,,,,,,0,7,7,25,1,0,1,0,,,,,,,,,,,,,,,,,,,,,,,,,,,,,,,,,['space'],[0.1411521999980323],207.91113049999694,None,207.1678197000001,None,207.1678197000001,None,207.1678197000001,None,207.1678197000001,None,207.1678197000001,None,207.1678197000001,None,207.1678197000001,None,207.1678197000001,None,,,,,,,,,,,,,,,,,,,,,,,,,,Demo Data,2020_Mar_19_1027,trial,3.2.4,59.92455498806974,
Meatballs,Provolone cheese,Onions,Marinara sauce,None,None,None,None,Chicken,Pepper jack cheese,Ranch dressing,None,None,None,None,None,4,4,3,,,,,,0,7,7,25,2,0,2,0,,,,,,,,,,,,,,,,,,,,,,,,,,,,,,,,,['a'],[0.15034589999413583],208.92759490000026,None,208.20010860000912,None,208.20010860000912,None,208.20010860000912,None,208.20010860000912,None,208.20010860000912,None,208.20010860000912,None,208.20010860000912,None,208.20010860000912,None,,,,,,,,,,,,,,,,,,,,,,,,,,Demo Data,2020_Mar_19_1027,trial,3.2.4,59.92455498806974,
Turkey,Provolone cheese,Pesto,Bell peppers,None,None,None,None,Swiss cheese,Provolone cheese,Bell peppers,Tomatoes,Onions,None,None,None,5,4,5,,,,,,0,8,8,51,0,0,0,0,,,,,,,,,,,,,,,,,,,,,,,,,,,,,,,,,['space'],[0.5522403999930248],209.96094260000973,None,209.2114578000037,None,209.2114578000037,None,209.2114578000037,None,209.2114578000037,None,209.2114578000037,None,209.2114578000037,None,209.2114578000037,None,209.2114578000037,None,,,,,,,,,,,,,,,,,,,,,,,,,,Demo Data,2020_Mar_19_1027,trial,3.2.4,59.92455498806974,
Turkey,Provolone cheese,Pesto,Bell peppers,None,None,None,None,Swiss cheese,Provolone cheese,Bell peppers,Tomatoes,Onions,None,None,None,5,4,5,,,,,,0,8,8,51,1,0,1,0,,,,,,,,,,,,,,,,,,,,,,,,,,,,,,,,,['space'],[0.3108868999988772],211.4105767000001,None,210.67172520000895,None,210.67172520000895,None,210.67172520000895,None,210.67172520000895,None,210.67172520000895,None,210.67172520000895,None,210.67172520000895,None,210.67172520000895,None,,,,,,,,,,,,,,,,,,,,,,,,,,Demo Data,2020_Mar_19_1027,trial,3.2.4,59.92455498806974,
Turkey,Provolone cheese,Pesto,Bell peppers,None,None,None,None,Swiss cheese,Provolone cheese,Bell peppers,Tomatoes,Onions,None,None,None,5,4,5,,,,,,0,8,8,51,2,0,2,0,,,,,,,,,,,,,,,,,,,,,,,,,,,,,,,,,['l'],[0.21534019999671727],212.62730790000933,None,211.88826100000006,None,211.88826100000006,None,211.88826100000006,None,211.88826100000006,None,211.88826100000006,None,211.88826100000006,None,211.88826100000006,None,211.88826100000006,None,,,,,,,,,,,,,,,,,,,,,,,,,,Demo Data,2020_Mar_19_1027,trial,3.2.4,59.92455498806974,
Steak,Onions,Bell peppers,Provolone cheese,None,None,None,None,Tuna,Lettuce,Tomatoes,Mayonnaise,None,None,None,None,4,4,4,,,,,,0,9,9,24,0,0,0,0,,,,,,,,,,,,,,,,,,,,,,,,,,,,,,,,,['space'],[0.08352020000165794],213.72710980000556,None,213.01583930000197,None,213.01583930000197,None,213.01583930000197,None,213.01583930000197,None,213.01583930000197,None,213.01583930000197,None,213.01583930000197,None,213.01583930000197,None,,,,,,,,,,,,,,,,,,,,,,,,,,Demo Data,2020_Mar_19_1027,trial,3.2.4,59.92455498806974,
Steak,Onions,Bell peppers,Provolone cheese,None,None,None,None,Tuna,Lettuce,Tomatoes,Mayonnaise,None,None,None,None,4,4,4,,,,,,0,9,9,24,1,0,1,0,,,,,,,,,,,,,,,,,,,,,,,,,,,,,,,,,['l'],[0.14351470000110567],214.6937833999982,None,213.94691990000138,None,213.94691990000138,None,213.94691990000138,None,213.94691990000138,None,213.94691990000138,None,213.94691990000138,None,213.94691990000138,None,213.94691990000138,None,,,,,,,,,,,,,,,,,,,,,,,,,,Demo Data,2020_Mar_19_1027,trial,3.2.4,59.92455498806974,
Turkey,Cheddar cheese,Mayonnaise,None,None,None,None,None,Ham,Pork,Swiss cheese,Mustard,Pickles,None,None,None,5,3,5,,,,,,0,10,10,12,0,0,0,0,,,,,,,,,,,,,,,,,,,,,,,,,,,,,,,,,['space'],[0.13319700000283774],215.7268641999981,None,214.98298430000432,None,214.98298430000432,None,214.98298430000432,None,214.98298430000432,None,214.98298430000432,None,214.98298430000432,None,214.98298430000432,None,214.98298430000432,None,,,,,,,,,,,,,,,,,,,,,,,,,,Demo Data,2020_Mar_19_1027,trial,3.2.4,59.92455498806974,
Turkey,Cheddar cheese,Mayonnaise,None,None,None,None,None,Ham,Pork,Swiss cheese,Mustard,Pickles,None,None,None,5,3,5,,,,,,0,10,10,12,1,0,1,0,,,,,,,,,,,,,,,,,,,,,,,,,,,,,,,,,['l'],[0.10280629999761004],216.72667699999874,None,215.98966900000232,None,215.98966900000232,None,215.98966900000232,None,215.98966900000232,None,215.98966900000232,None,215.98966900000232,None,215.98966900000232,None,215.98966900000232,None,,,,,,,,,,,,,,,,,,,,,,,,,,Demo Data,2020_Mar_19_1027,trial,3.2.4,59.92455498806974,
Chicken,Pepper jack cheese,Ranch dressing,None,None,None,None,None,Salami,Provolone cheese,Lettuce,Tomatoes,Mayonnaise,Mustard,None,None,6,3,6,,,,,,0,11,11,65,0,0,0,0,,,,,,,,,,,,,,,,,,,,,,,,,,,,,,,,,['space'],[0.14397550000285264],217.7266648000077,None,216.98416310000175,None,216.98416310000175,None,216.98416310000175,None,216.98416310000175,None,216.98416310000175,None,216.98416310000175,None,216.98416310000175,None,216.98416310000175,None,,,,,,,,,,,,,,,,,,,,,,,,,,Demo Data,2020_Mar_19_1027,trial,3.2.4,59.92455498806974,
Chicken,Pepper jack cheese,Ranch dressing,None,None,None,None,None,Salami,Provolone cheese,Lettuce,Tomatoes,Mayonnaise,Mustard,None,None,6,3,6,,,,,,0,11,11,65,1,0,1,0,,,,,,,,,,,,,,,,,,,,,,,,,,,,,,,,,['l'],[0.5653429000085453],218.75979630000074,None,218.02193540000007,None,218.02193540000007,None,218.02193540000007,None,218.02193540000007,None,218.02193540000007,None,218.02193540000007,None,218.02193540000007,None,218.02193540000007,None,,,,,,,,,,,,,,,,,,,,,,,,,,Demo Data,2020_Mar_19_1027,trial,3.2.4,59.92455498806974,
Pastrami,Swiss cheese,Coleslaw,None,None,None,None,None,Chicken,Cheddar cheese,Bacon,Avocado,Ranch dressing,None,None,None,5,3,5,,,,,,0,12,12,70,0,0,0,0,,,,,,,,,,,,,,,,,,,,,,,,,,,,,,,,,['space'],[0.1068197999993572],220.21081279999635,None,219.45914180000545,None,219.45914180000545,None,219.45914180000545,None,219.45914180000545,None,219.45914180000545,None,219.45914180000545,None,219.45914180000545,None,219.45914180000545,None,,,,,,,,,,,,,,,,,,,,,,,,,,Demo Data,2020_Mar_19_1027,trial,3.2.4,59.92455498806974,
Pastrami,Swiss cheese,Coleslaw,None,None,None,None,None,Chicken,Cheddar cheese,Bacon,Avocado,Ranch dressing,None,None,None,5,3,5,,,,,,0,12,12,70,1,0,1,0,,,,,,,,,,,,,,,,,,,,,,,,,,,,,,,,,['l'],[0.5970541999995476],221.22638259999803,None,220.48629739999888,None,220.48629739999888,None,220.48629739999888,None,220.48629739999888,None,220.48629739999888,None,220.48629739999888,None,220.48629739999888,None,220.48629739999888,None,,,,,,,,,,,,,,,,,,,,,,,,,,Demo Data,2020_Mar_19_1027,trial,3.2.4,59.92455498806974,
Chicken,Ham,Cheddar cheese,Mayonnaise,None,None,None,None,Turkey,Garlic aioli,Bacon,Spinach,None,None,None,None,4,4,4,,,,,,0,13,13,59,0,0,0,0,,,,,,,,,,,,,,,,,,,,,,,,,,,,,,,,,['l'],[0.17364930000621825],222.7091519999958,None,221.96264019999944,None,221.96264019999944,None,221.96264019999944,None,221.96264019999944,None,221.96264019999944,None,221.96264019999944,None,221.96264019999944,None,221.96264019999944,None,,,,,,,,,,,,,,,,,,,,,,,,,,Demo Data,2020_Mar_19_1027,trial,3.2.4,59.92455498806974,
Turkey,Garlic aioli,Bacon,Spinach,None,None,None,None,Chicken,Mayonnaise,Cheddar cheese,None,None,None,None,None,4,4,3,,,,,,0,14,14,29,0,0,0,0,,,,,,,,,,,,,,,,,,,,,,,,,,,,,,,,,['l'],[0.4944301999930758],223.80919110000832,None,223.06820799999696,None,223.06820799999696,None,223.06820799999696,None,223.06820799999696,None,223.06820799999696,None,223.06820799999696,None,223.06820799999696,None,223.06820799999696,None,,,,,,,,,,,,,,,,,,,,,,,,,,Demo Data,2020_Mar_19_1027,trial,3.2.4,59.92455498806974,
Bacon,Turkey,Pepper jack cheese,Mustard,None,None,None,None,Bacon,Spinach,Tomatoes,Avocado,Mayonnaise,None,None,None,5,4,5,,,,,,0,15,15,9,0,0,0,0,,,,,,,,,,,,,,,,,,,,,,,,,,,,,,,,,['l'],[0.15397280000615865],225.19194840001,None,224.44335420000425,None,224.44335420000425,None,224.44335420000425,None,224.44335420000425,None,224.44335420000425,None,224.44335420000425,None,224.44335420000425,None,224.44335420000425,None,,,,,,,,,,,,,,,,,,,,,,,,,,Demo Data,2020_Mar_19_1027,trial,3.2.4,59.92455498806974,
Bacon,Lettuce,Tomatoes,Ranch dressing,None,None,None,None,Turkey,Gouda cheese,Avocado,Garlic aioli,Jalapenos,Tomatoes,Lettuce,None,7,4,7,,,,,,0,16,16,35,0,0,0,0,,,,,,,,,,,,,,,,,,,,,,,,,,,,,,,,,['l'],[0.02548939999542199],226.22550110000884,None,225.48800060000212,None,225.48800060000212,None,225.48800060000212,None,225.48800060000212,None,225.48800060000212,None,225.48800060000212,None,225.48800060000212,None,225.48800060000212,None,,,,,,,,,,,,,,,,,,,,,,,,,,Demo Data,2020_Mar_19_1027,trial,3.2.4,59.92455498806974,
Salami,Roast beef,Turkey,Ham,Swiss cheese,Lettuce,Tomatoes,Mayonnaise,Chicken,Gouda cheese,Avocado,Basil,Bell peppers,Mayonnaise,None,None,8,8,6,,,,,,0,17,17,17,0,0,0,0,,,,,,,,,,,,,,,,,,,,,,,,,,,,,,,,,['l'],[0.05036990001099184],227.15873769999598,None,226.4070756000001,None,226.4070756000001,None,226.4070756000001,None,226.4070756000001,None,226.4070756000001,None,226.4070756000001,None,226.4070756000001,None,226.4070756000001,None,,,,,,,,,,,,,,,,,,,,,,,,,,Demo Data,2020_Mar_19_1027,trial,3.2.4,59.92455498806974,
Pork,Cucumbers,Pickles,Jalapenos,Basil,Mayonnaise,None,None,Roast beef,Pastrami,Swiss cheese,Mustard,None,None,None,None,6,6,4,,,,,,0,18,18,15,0,0,0,0,,,,,,,,,,,,,,,,,,,,,,,,,,,,,,,,,['l'],[0.09206690000428353],228.09196550000343,None,227.34499929999583,None,227.34499929999583,None,227.34499929999583,None,227.34499929999583,None,227.34499929999583,None,227.34499929999583,None,227.34499929999583,None,227.34499929999583,None,,,,,,,,,,,,,,,,,,,,,,,,,,Demo Data,2020_Mar_19_1027,trial,3.2.4,59.92455498806974,
Chicken,Bacon,Feta cheese,Bell peppers,Basil,Garlic aioli,None,None,Turkey,Ham,Cheddar cheese,Mayonnaise,None,None,None,None,6,6,4,,,,,,0,19,19,42,0,0,0,0,,,,,,,,,,,,,,,,,,,,,,,,,,,,,,,,,['l'],[0.919920500004082],229.09167490000254,None,228.34091470000567,None,228.34091470000567,None,228.34091470000567,None,228.34091470000567,None,228.34091470000567,None,228.34091470000567,None,228.34091470000567,None,228.34091470000567,None,,,,,,,,,,,,,,,,,,,,,,,,,,Demo Data,2020_Mar_19_1027,trial,3.2.4,59.92455498806974,
Turkey,Cheddar cheese,Coleslaw,Spinach,Mustard,None,None,None,Salami,Provolone cheese,Lettuce,Tomatoes,Mayonnaise,Mustard,None,None,6,5,6,,,,,,0,20,20,10,0,0,0,0,,,,,,,,,,,,,,,,,,,,,,,,,,,,,,,,,['l'],[0.890071200003149],230.90836800000397,None,230.15697140000702,None,230.15697140000702,None,230.15697140000702,None,230.15697140000702,None,230.15697140000702,None,230.15697140000702,None,230.15697140000702,None,230.15697140000702,None,,,,,,,,,,,,,,,,,,,,,,,,,,Demo Data,2020_Mar_19_1027,trial,3.2.4,59.92455498806974,
Chicken,Ham,Cheddar cheese,Mayonnaise,None,None,None,None,Turkey,Bacon,Avocado,Provolone cheese,Lettuce,Tomatoes,Onions,Ranch dressing,8,4,8,,,,,,0,21,21,21,0,0,0,0,,,,,,,,,,,,,,,,,,,,,,,,,,,,,,,,,['l'],[0.13866399999824353],232.69137490000867,None,231.94752169999992,None,231.94752169999992,None,231.94752169999992,None,231.94752169999992,None,231.94752169999992,None,231.94752169999992,None,231.94752169999992,None,231.94752169999992,None,,,,,,,,,,,,,,,,,,,,,,,,,,Demo Data,2020_Mar_19_1027,trial,3.2.4,59.92455498806974,
Bacon,Ham,Turkey,Mayonnaise,Cheddar cheese,Tomatoes,Spinach,Swiss cheese,Turkey,Salami,Cheddar cheese,Mayonnaise,None,None,None,None,8,8,4,,,,,,0,22,22,19,0,0,0,0,,,,,,,,,,,,,,,,,,,,,,,,,,,,,,,,,['l'],[0.0524135000014212],233.72459389999858,None,232.9882082999975,None,232.9882082999975,None,232.9882082999975,None,232.9882082999975,None,232.9882082999975,None,232.9882082999975,None,232.9882082999975,None,232.9882082999975,None,,,,,,,,,,,,,,,,,,,,,,,,,,Demo Data,2020_Mar_19_1027,trial,3.2.4,59.92455498806974,
Chicken,Garlic aioli,Pickles,Cucumbers,Jalapenos,Basil,None,None,Roast beef,Bacon,Turkey,Mayonnaise,None,None,None,None,6,6,4,,,,,,0,23,23,13,0,0,0,0,,,,,,,,,,,,,,,,,,,,,,,,,,,,,,,,,['l'],[0.13391649999539368],234.6745193000097,None,233.9381907000061,None,233.9381907000061,None,233.9381907000061,None,233.9381907000061,None,233.9381907000061,None,233.9381907000061,None,233.9381907000061,None,233.9381907000061,None,,,,,,,,,,,,,,,,,,,,,,,,,,Demo Data,2020_Mar_19_1027,trial,3.2.4,59.92455498806974,
Onions,Bell peppers,Mushrooms,Jalapenos,American cheese,Steak,None,None,Bacon,Provolone cheese,Mushrooms,Parmesan cheese,None,None,None,None,6,6,4,,,,,,0,24,24,0,0,0,0,0,,,,,,,,,,,,,,,,,,,,,,,,,,,,,,,,,['l'],[0.08923139999387786],235.70757969999977,None,234.95454730000347,None,234.95454730000347,None,234.95454730000347,None,234.95454730000347,None,234.95454730000347,None,234.95454730000347,None,234.95454730000347,None,234.95454730000347,None,,,,,,,,,,,,,,,,,,,,,,,,,,Demo Data,2020_Mar_19_1027,trial,3.2.4,59.92455498806974,
Steak,Bacon,American cheese,Tomatoes,Onions,Pickles,None,None,Bell peppers,Provolone cheese,Cucumbers,Spinach,Tomatoes,Onions,Hummus,None,7,6,7,,,,,,0,25,25,14,0,0,0,0,,,,,,,,,,,,,,,,,,,,,,,,,,,,,,,,,['l'],[0.10421820000919979],236.6908889000042,None,235.9426281000051,None,235.9426281000051,None,235.9426281000051,None,235.9426281000051,None,235.9426281000051,None,235.9426281000051,None,235.9426281000051,None,235.9426281000051,None,,,,,,,,,,,,,,,,,,,,,,,,,,Demo Data,2020_Mar_19_1027,trial,3.2.4,59.92455498806974,
Mozzarella cheese,Bell peppers,Pesto,Spinach,None,None,None,None,Ham,Lettuce,Tomatoes,Mayonnaise,Mustard,None,None,None,5,4,5,,,,,,0,26,26,7,0,0,0,0,,,,,,,,,,,,,,,,,,,,,,,,,,,,,,,,,['l'],[0.08279119999497198],237.70729859999847,None,236.96193520000088,None,236.96193520000088,None,236.96193520000088,None,236.96193520000088,None,236.96193520000088,None,236.96193520000088,None,236.96193520000088,None,236.96193520000088,None,,,,,,,,,,,,,,,,,,,,,,,,,,Demo Data,2020_Mar_19_1027,trial,3.2.4,59.92455498806974,
Ham,Swiss cheese,Mustard,None,None,None,None,None,Ham,Swiss cheese,Mayonnaise,Mustard,Tomatoes,None,None,None,5,3,5,,,,,,0,27,27,75,0,0,0,0,,,,,,,,,,,,,,,,,,,,,,,,,,,,,,,,,['l'],[0.08352179999928921],238.65722249999817,None,237.92754220000643,None,237.92754220000643,None,237.92754220000643,None,237.92754220000643,None,237.92754220000643,None,237.92754220000643,None,237.92754220000643,None,237.92754220000643,None,,,,,,,,,,,,,,,,,,,,,,,,,,Demo Data,2020_Mar_19_1027,trial,3.2.4,59.92455498806974,
Mushrooms,Swiss cheese,Provolone cheese,Cheddar cheese,Lettuce,Tomatoes,None,None,Roast beef,Pastrami,Swiss cheese,Mustard,None,None,None,None,6,6,4,,,,,,0,28,28,74,0,0,0,0,,,,,,,,,,,,,,,,,,,,,,,,,,,,,,,,,['l'],[0.009502000000793487],239.62383840000257,None,238.8872590999963,None,238.8872590999963,None,238.8872590999963,None,238.8872590999963,None,238.8872590999963,None,238.8872590999963,None,238.8872590999963,None,238.8872590999963,None,,,,,,,,,,,,,,,,,,,,,,,,,,Demo Data,2020_Mar_19_1027,trial,3.2.4,59.92455498806974,
Turkey,Salami,Cheddar cheese,Mayonnaise,None,None,None,None,Turkey,Bacon,Avocado,Provolone cheese,Lettuce,Tomatoes,Onions,Ranch dressing,8,4,8,,,,,,0,29,29,56,0,0,0,0,,,,,,,,,,,,,,,,,,,,,,,,,,,,,,,,,['l'],[0.0637496999988798],240.5236506000074,None,239.7881677999976,None,239.7881677999976,None,239.7881677999976,None,239.7881677999976,None,239.7881677999976,None,239.7881677999976,None,239.7881677999976,None,239.7881677999976,None,,,,,,,,,,,,,,,,,,,,,,,,,,Demo Data,2020_Mar_19_1027,trial,3.2.4,59.92455498806974,
Chicken,Gouda cheese,Avocado,Basil,Bell peppers,Mayonnaise,None,None,Turkey,Gouda cheese,Avocado,Garlic aioli,Jalapenos,Tomatoes,Lettuce,None,7,6,7,,,,,,0,30,30,44,0,0,0,0,,,,,,,,,,,,,,,,,,,,,,,,,,,,,,,,,['l'],[0.1570225999894319],241.4736658000038,None,240.73213099999703,None,240.73213099999703,None,240.73213099999703,None,240.73213099999703,None,240.73213099999703,None,240.73213099999703,None,240.73213099999703,None,240.73213099999703,None,,,,,,,,,,,,,,,,,,,,,,,,,,Demo Data,2020_Mar_19_1027,trial,3.2.4,59.92455498806974,
Chicken,Mayonnaise,Cheddar cheese,None,None,None,None,None,Steak,Onions,Bell peppers,Provolone cheese,None,None,None,None,4,3,4,,,,,,0,31,31,58,0,0,0,0,,,,,,,,,,,,,,,,,,,,,,,,,,,,,,,,,['l'],[0.03793099999893457],242.52462599999853,None,241.77815690000716,None,241.77815690000716,None,241.77815690000716,None,241.77815690000716,None,241.77815690000716,None,241.77815690000716,None,241.77815690000716,None,241.77815690000716,None,,,,,,,,,,,,,,,,,,,,,,,,,,Demo Data,2020_Mar_19_1027,trial,3.2.4,59.92455498806974,
Turkey,Provolone cheese,Spinach,Garlic aioli,None,None,None,None,Chicken,Pickles,Basil,Tomatoes,Cucumbers,None,None,None,5,4,5,,,,,,0,32,32,2,0,0,0,0,,,,,,,,,,,,,,,,,,,,,,,,,,,,,,,,,['l'],[0.08615489999647252],243.50657949999731,None,242.75879390000773,None,242.75879390000773,None,242.75879390000773,None,242.75879390000773,None,242.75879390000773,None,242.75879390000773,None,242.75879390000773,None,242.75879390000773,None,,,,,,,,,,,,,,,,,,,,,,,,,,Demo Data,2020_Mar_19_1027,trial,3.2.4,59.92455498806974,
Turkey,Avocado,Mayonnaise,None,None,None,None,None,Ham,Pork,Swiss cheese,Mustard,Pickles,None,None,None,5,3,5,,,,,,0,33,33,53,0,0,0,0,,,,,,,,,,,,,,,,,,,,,,,,,,,,,,,,,['l'],[0.10883889999240637],244.4894476000045,None,243.74134880000202,None,243.74134880000202,None,243.74134880000202,None,243.74134880000202,None,243.74134880000202,None,243.74134880000202,None,243.74134880000202,None,243.74134880000202,None,,,,,,,,,,,,,,,,,,,,,,,,,,Demo Data,2020_Mar_19_1027,trial,3.2.4,59.92455498806974,
Meatballs,Provolone cheese,Onions,Marinara sauce,None,None,None,None,Chicken,Mozzarella cheese,Tomatoes,Pesto,Spinach,None,None,None,5,4,5,,,,,,0,34,34,43,0,0,0,0,,,,,,,,,,,,,,,,,,,,,,,,,,,,,,,,,['l'],[0.005627000005915761],245.48967599999742,None,244.7498467999976,None,244.7498467999976,None,244.7498467999976,None,244.7498467999976,None,244.7498467999976,None,244.7498467999976,None,244.7498467999976,None,244.7498467999976,None,,,,,,,,,,,,,,,,,,,,,,,,,,Demo Data,2020_Mar_19_1027,trial,3.2.4,59.92455498806974,
Turkey,Avocado,Mayonnaise,None,None,None,None,None,Chicken,Mozzarella cheese,Tomatoes,Onions,Basil,Mayonnaise,None,None,6,3,6,,,,,,0,35,35,26,0,0,0,0,,,,,,,,,,,,,,,,,,,,,,,,,,,,,,,,,['l'],[0.7013804000016535],246.37276480000583,None,245.63448110000172,None,245.63448110000172,None,245.63448110000172,None,245.63448110000172,None,245.63448110000172,None,245.63448110000172,None,245.63448110000172,None,245.63448110000172,None,,,,,,,,,,,,,,,,,,,,,,,,,,Demo Data,2020_Mar_19_1027,trial,3.2.4,59.92455498806974,
Spinach,Tomatoes,Cucumbers,Onions,Bell peppers,Avocado,Mayonnaise,None,Turkey,Ham,Bacon,Swiss cheese,Lettuce,Tomatoes,Onions,None,7,7,7,,,,,,0,36,36,31,0,0,0,0,,,,,,,,,,,,,,,,,,,,,,,,,,,,,,,,,['l'],[0.21991330001037568],247.9561085000023,None,247.21332199999597,None,247.21332199999597,None,247.21332199999597,None,247.21332199999597,None,247.21332199999597,None,247.21332199999597,None,247.21332199999597,None,247.21332199999597,None,,,,,,,,,,,,,,,,,,,,,,,,,,Demo Data,2020_Mar_19_1027,trial,3.2.4,59.92455498806974,
Mozzarella cheese,Bell peppers,Pesto,Spinach,None,None,None,None,Chicken,Ham,Swiss cheese,Mayonnaise,None,None,None,None,4,4,4,,,,,,0,37,37,50,0,0,0,0,,,,,,,,,,,,,,,,,,,,,,,,,,,,,,,,,['l'],[0.16026759998931084],249.0892928000103,None,248.34047880000435,None,248.34047880000435,None,248.34047880000435,None,248.34047880000435,None,248.34047880000435,None,248.34047880000435,None,248.34047880000435,None,248.34047880000435,None,,,,,,,,,,,,,,,,,,,,,,,,,,Demo Data,2020_Mar_19_1027,trial,3.2.4,59.92455498806974,
Pork,Ham,Swiss cheese,Pickles,Mustard,None,None,None,Steak,Turkey,Ham,Cheddar cheese,Olives,Lettuce,Tomatoes,Onions,8,5,8,,,,,,0,38,38,40,0,0,0,0,,,,,,,,,,,,,,,,,,,,,,,,,,,,,,,,,['l'],[0.16664320000563748],250.1390326999972,None,249.39204230000905,None,249.39204230000905,None,249.39204230000905,None,249.39204230000905,None,249.39204230000905,None,249.39204230000905,None,249.39204230000905,None,249.39204230000905,None,,,,,,,,,,,,,,,,,,,,,,,,,,Demo Data,2020_Mar_19_1027,trial,3.2.4,59.92455498806974,
Bacon,Spinach,Tomatoes,Avocado,Mayonnaise,None,None,None,Provolone cheese,Swiss cheese,Cheddar cheese,Parmesan cheese,Tomatoes,None,None,None,5,5,5,,,,,,0,39,39,66,0,0,0,0,,,,,,,,,,,,,,,,,,,,,,,,,,,,,,,,,['l'],[0.22689689999970142],251.18892050000431,None,250.44475140000577,None,250.44475140000577,None,250.44475140000577,None,250.44475140000577,None,250.44475140000577,None,250.44475140000577,None,250.44475140000577,None,250.44475140000577,None,,,,,,,,,,,,,,,,,,,,,,,,,,Demo Data,2020_Mar_19_1027,trial,3.2.4,59.92455498806974,
Cheddar cheese,Provolone cheese,Swiss cheese,Mushrooms,Mayonnaise,Lettuce,Tomatoes,None,Bacon,Turkey,Pepper jack cheese,Mustard,None,None,None,None,7,7,4,,,,,,0,40,40,62,0,0,0,0,,,,,,,,,,,,,,,,,,,,,,,,,,,,,,,,,['l'],[0.19881489999534097],255.03835650000838,None,254.2960630000016,None,254.2960630000016,None,254.2960630000016,None,254.2960630000016,None,254.2960630000016,None,254.2960630000016,None,254.2960630000016,None,254.2960630000016,None,251.48273540000082,None,,,,,,,,,,,,,,,,,,,,,,,,Demo Data,2020_Mar_19_1027,trial,3.2.4,59.92455498806974,
Chicken,American cheese,Lettuce,Tomatoes,Mayonnaise,None,None,None,Pastrami,Cheddar cheese,Mustard,Pickles,None,None,None,None,5,5,4,,,,,,0,41,41,78,0,0,0,0,,,,,,,,,,,,,,,,,,,,,,,,,,,,,,,,,['l'],[0.11166860000230372],256.1217176000064,None,255.3843737999996,None,255.3843737999996,None,255.3843737999996,None,255.3843737999996,None,255.3843737999996,None,255.3843737999996,None,255.3843737999996,None,255.3843737999996,None,,,,,,,,,,,,,,,,,,,,,,,,,,Demo Data,2020_Mar_19_1027,trial,3.2.4,59.92455498806974,
Avocado,Onions,Cucumbers,None,None,None,None,None,Tuna,Basil,Cheddar cheese,Garlic aioli,Pickles,Onions,Tomatoes,Spinach,8,3,8,,,,,,0,42,42,34,0,0,0,0,,,,,,,,,,,,,,,,,,,,,,,,,,,,,,,,,['l'],[0.023354799996013753],257.12150950000796,None,256.3823778000078,None,256.3823778000078,None,256.3823778000078,None,256.3823778000078,None,256.3823778000078,None,256.3823778000078,None,256.3823778000078,None,256.3823778000078,None,,,,,,,,,,,,,,,,,,,,,,,,,,Demo Data,2020_Mar_19_1027,trial,3.2.4,59.92455498806974,
Salami,Roast beef,Turkey,Ham,Swiss cheese,Lettuce,Tomatoes,Mayonnaise,Turkey,Cheddar cheese,Mayonnaise,None,None,None,None,None,8,8,3,,,,,,0,43,43,79,0,0,0,0,,,,,,,,,,,,,,,,,,,,,,,,,,,,,,,,,['l'],[0.07001160000800155],258.03827170000295,None,257.29950480000116,None,257.29950480000116,None,257.29950480000116,None,257.29950480000116,None,257.29950480000116,None,257.29950480000116,None,257.29950480000116,None,257.29950480000116,None,,,,,,,,,,,,,,,,,,,,,,,,,,Demo Data,2020_Mar_19_1027,trial,3.2.4,59.92455498806974,
Bacon,Ham,Turkey,Mayonnaise,Mustard,Cheddar cheese,Tomatoes,Spinach,Bacon,Lettuce,Tomatoes,Garlic aioli,Avocado,None,None,None,8,8,5,,,,,,0,44,44,71,0,0,0,0,,,,,,,,,,,,,,,,,,,,,,,,,,,,,,,,,['l'],[0.03668249999464024],259.0047542000102,None,258.26436380000087,None,258.26436380000087,None,258.26436380000087,None,258.26436380000087,None,258.26436380000087,None,258.26436380000087,None,258.26436380000087,None,258.26436380000087,None,,,,,,,,,,,,,,,,,,,,,,,,,,Demo Data,2020_Mar_19_1027,trial,3.2.4,59.92455498806974,
Tuna,Basil,Cheddar cheese,Garlic aioli,Pickles,Onions,Tomatoes,Spinach,Turkey,Ham,Bacon,Provolone cheese,Lettuce,Tomatoes,Ranch dressing,None,8,8,7,,,,,,0,45,45,64,0,0,0,0,,,,,,,,,,,,,,,,,,,,,,,,,,,,,,,,,['l'],[0.05029639998974744],259.93780179999885,None,259.18599749999703,None,259.18599749999703,None,259.18599749999703,None,259.18599749999703,None,259.18599749999703,None,259.18599749999703,None,259.18599749999703,None,259.18599749999703,None,,,,,,,,,,,,,,,,,,,,,,,,,,Demo Data,2020_Mar_19_1027,trial,3.2.4,59.92455498806974,
Chicken,Provolone cheese,Pesto,None,None,None,None,None,Turkey,Bacon,Jalapenos,Lettuce,Avocado,Garlic aioli,Tomatoes,None,7,3,7,,,,,,0,46,46,39,0,0,0,0,,,,,,,,,,,,,,,,,,,,,,,,,,,,,,,,,['l'],[0.09782359999371693],260.8877862000081,None,260.14376810000977,None,260.14376810000977,None,260.14376810000977,None,260.14376810000977,None,260.14376810000977,None,260.14376810000977,None,260.14376810000977,None,260.14376810000977,None,,,,,,,,,,,,,,,,,,,,,,,,,,Demo Data,2020_Mar_19_1027,trial,3.2.4,59.92455498806974,
Turkey,Ham,Bacon,Swiss cheese,Lettuce,Tomatoes,Onions,None,Chicken,Pickles,Basil,Tomatoes,Cucumbers,None,None,None,7,7,5,,,,,,0,47,47,46,0,0,0,0,,,,,,,,,,,,,,,,,,,,,,,,,,,,,,,,,['l'],[0.5564161000074819],261.87065939999593,None,261.1188666000089,None,261.1188666000089,None,261.1188666000089,None,261.1188666000089,None,261.1188666000089,None,261.1188666000089,None,261.1188666000089,None,261.1188666000089,None,,,,,,,,,,,,,,,,,,,,,,,,,,Demo Data,2020_Mar_19_1027,trial,3.2.4,59.92455498806974,
Chicken,Mozzarella cheese,Tomatoes,Pesto,Spinach,None,None,None,Roast beef,Turkey,Pastrami,Mayonnaise,Provolone cheese,None,None,None,5,5,5,,,,,,0,48,48,28,0,0,0,0,,,,,,,,,,,,,,,,,,,,,,,,,,,,,,,,,['l'],[0.07603969999763649],263.33759760000976,None,262.58592189999763,None,262.58592189999763,None,262.58592189999763,None,262.58592189999763,None,262.58592189999763,None,262.58592189999763,None,262.58592189999763,None,262.58592189999763,None,,,,,,,,,,,,,,,,,,,,,,,,,,Demo Data,2020_Mar_19_1027,trial,3.2.4,59.92455498806974,
Turkey,Avocado,Bacon,Garlic aioli,Tomatoes,Spinach,Onions,None,Tuna,Lettuce,Tomatoes,Mayonnaise,None,None,None,None,7,7,4,,,,,,0,49,49,73,0,0,0,0,,,,,,,,,,,,,,,,,,,,,,,,,,,,,,,,,['l'],[0.06748759999754839],264.32077790000767,None,263.5677566000086,None,263.5677566000086,None,263.5677566000086,None,263.5677566000086,None,263.5677566000086,None,263.5677566000086,None,263.5677566000086,None,263.5677566000086,None,,,,,,,,,,,,,,,,,,,,,,,,,,Demo Data,2020_Mar_19_1027,trial,3.2.4,59.92455498806974,
Tomatoes,Mozzarella cheese,Spinach,Pesto,None,None,None,None,Ham,Swiss cheese,Mustard,None,None,None,None,None,4,4,3,,,,,,0,50,50,1,0,0,0,0,,,,,,,,,,,,,,,,,,,,,,,,,,,,,,,,,['l'],[0.09622749999107327],265.27177580000716,None,264.52051879999635,None,264.52051879999635,None,264.52051879999635,None,264.52051879999635,None,264.52051879999635,None,264.52051879999635,None,264.52051879999635,None,264.52051879999635,None,,,,,,,,,,,,,,,,,,,,,,,,,,Demo Data,2020_Mar_19_1027,trial,3.2.4,59.92455498806974,
Chicken,Garlic aioli,Pickles,Cucumbers,Jalapenos,Basil,None,None,Chicken,Bacon,Cheddar cheese,Swiss cheese,Spinach,Tomatoes,Mayonnaise,Mustard,8,6,8,,,,,,0,51,51,69,0,0,0,0,,,,,,,,,,,,,,,,,,,,,,,,,,,,,,,,,['l'],[0.12232569999468978],266.2703937000042,None,265.52454020000005,None,265.52454020000005,None,265.52454020000005,None,265.52454020000005,None,265.52454020000005,None,265.52454020000005,None,265.52454020000005,None,265.52454020000005,None,,,,,,,,,,,,,,,,,,,,,,,,,,Demo Data,2020_Mar_19_1027,trial,3.2.4,59.92455498806974,
Provolone cheese,Swiss cheese,Cheddar cheese,Parmesan cheese,Tomatoes,None,None,None,Chicken,Lettuce,Tomatoes,Mayonnaise,None,None,None,None,5,5,4,,,,,,0,52,52,4,0,0,0,0,,,,,,,,,,,,,,,,,,,,,,,,,,,,,,,,,['l'],[0.09599469999375287],267.2869669000065,None,266.5397975000087,None,266.5397975000087,None,266.5397975000087,None,266.5397975000087,None,266.5397975000087,None,266.5397975000087,None,266.5397975000087,None,266.5397975000087,None,,,,,,,,,,,,,,,,,,,,,,,,,,Demo Data,2020_Mar_19_1027,trial,3.2.4,59.92455498806974,
Bacon,Ham,Turkey,Mayonnaise,Mustard,Cheddar cheese,Tomatoes,Spinach,Turkey,Avocado,Bacon,Garlic aioli,Tomatoes,Spinach,Onions,None,8,8,7,,,,,,0,53,53,33,0,0,0,0,,,,,,,,,,,,,,,,,,,,,,,,,,,,,,,,,['l'],[0.06948009999177884],268.27005140000256,None,267.5312850000046,None,267.5312850000046,None,267.5312850000046,None,267.5312850000046,None,267.5312850000046,None,267.5312850000046,None,267.5312850000046,None,267.5312850000046,None,,,,,,,,,,,,,,,,,,,,,,,,,,Demo Data,2020_Mar_19_1027,trial,3.2.4,59.92455498806974,
Onions,Bell peppers,Mushrooms,Jalapenos,American cheese,Steak,None,None,Turkey,Ham,Roast beef,Provolone cheese,Spinach,Tomatoes,Mayonnaise,Mustard,8,6,8,,,,,,0,54,54,63,0,0,0,0,,,,,,,,,,,,,,,,,,,,,,,,,,,,,,,,,['l'],[0.08762560000468511],269.23672590000206,None,268.4933480000036,None,268.4933480000036,None,268.4933480000036,None,268.4933480000036,None,268.4933480000036,None,268.4933480000036,None,268.4933480000036,None,268.4933480000036,None,,,,,,,,,,,,,,,,,,,,,,,,,,Demo Data,2020_Mar_19_1027,trial,3.2.4,59.92455498806974,
Chicken,American cheese,Coleslaw,Tomatoes,Pickles,Mayonnaise,None,None,Swiss cheese,Provolone cheese,Bell peppers,Tomatoes,Onions,None,None,None,6,6,5,,,,,,0,55,55,3,0,0,0,0,,,,,,,,,,,,,,,,,,,,,,,,,,,,,,,,,['l'],[0.056841700003133155],270.2369247000024,None,269.4872736999969,None,269.4872736999969,None,269.4872736999969,None,269.4872736999969,None,269.4872736999969,None,269.4872736999969,None,269.4872736999969,None,269.4872736999969,None,,,,,,,,,,,,,,,,,,,,,,,,,,Demo Data,2020_Mar_19_1027,trial,3.2.4,59.92455498806974,
Cheddar cheese,Avocado,Onions,Tomatoes,Mayonnaise,None,None,None,Bacon,Ham,Turkey,Mayonnaise,Cheddar cheese,Tomatoes,Spinach,Swiss cheese,8,5,8,,,,,,0,56,56,52,0,0,0,0,,,,,,,,,,,,,,,,,,,,,,,,,,,,,,,,,['l'],[0.05514209999819286],271.20321000000695,None,270.4513978000032,None,270.4513978000032,None,270.4513978000032,None,270.4513978000032,None,270.4513978000032,None,270.4513978000032,None,270.4513978000032,None,270.4513978000032,None,,,,,,,,,,,,,,,,,,,,,,,,,,Demo Data,2020_Mar_19_1027,trial,3.2.4,59.92455498806974,
Turkey,Ham,Bacon,Provolone cheese,Lettuce,Tomatoes,Ranch dressing,None,Chicken,Cheddar cheese,Bacon,Avocado,Ranch dressing,None,None,None,7,7,5,,,,,,0,57,57,32,0,0,0,0,,,,,,,,,,,,,,,,,,,,,,,,,,,,,,,,,['l'],[0.07417840001289733],272.1698112000013,None,271.4146791000094,None,271.4146791000094,None,271.4146791000094,None,271.4146791000094,None,271.4146791000094,None,271.4146791000094,None,271.4146791000094,None,271.4146791000094,None,,,,,,,,,,,,,,,,,,,,,,,,,,Demo Data,2020_Mar_19_1027,trial,3.2.4,59.92455498806974,
Pastrami,Swiss cheese,Coleslaw,None,None,None,None,None,Chicken,Bacon,Feta cheese,Bell peppers,Basil,Garlic aioli,None,None,6,3,6,,,,,,0,58,58,20,0,0,0,0,,,,,,,,,,,,,,,,,,,,,,,,,,,,,,,,,['l'],[0.04750879999483004],273.1362104,None,272.3905639000004,None,272.3905639000004,None,272.3905639000004,None,272.3905639000004,None,272.3905639000004,None,272.3905639000004,None,272.3905639000004,None,272.3905639000004,None,,,,,,,,,,,,,,,,,,,,,,,,,,Demo Data,2020_Mar_19_1027,trial,3.2.4,59.92455498806974,
Chicken,Cheddar cheese,Mayonnaise,None,None,None,None,None,Turkey,Cheddar cheese,Coleslaw,Spinach,Mustard,None,None,None,5,3,5,,,,,,0,59,59,47,0,0,0,0,,,,,,,,,,,,,,,,,,,,,,,,,,,,,,,,,['l'],[0.08794720000878442],274.0694475000055,None,273.32846309999877,None,273.32846309999877,None,273.32846309999877,None,273.32846309999877,None,273.32846309999877,None,273.32846309999877,None,273.32846309999877,None,273.32846309999877,None,,,,,,,,,,,,,,,,,,,,,,,,,,Demo Data,2020_Mar_19_1027,trial,3.2.4,59.92455498806974,
Chicken,Provolone cheese,Pesto,None,None,None,None,None,Ham,Lettuce,Tomatoes,Mayonnaise,Mustard,None,None,None,5,3,5,,,,,,0,60,60,48,0,0,0,0,,,,,,,,,,,,,,,,,,,,,,,,,,,,,,,,,['l'],[0.06573489999573212],275.05266880001,None,274.31248730000516,None,274.31248730000516,None,274.31248730000516,None,274.31248730000516,None,274.31248730000516,None,274.31248730000516,None,274.31248730000516,None,274.31248730000516,None,,,,,,,,,,,,,,,,,,,,,,,,,,Demo Data,2020_Mar_19_1027,trial,3.2.4,59.92455498806974,
Chicken,Mozzarella cheese,Tomatoes,Onions,Basil,Mayonnaise,None,None,Chicken,American cheese,Coleslaw,Tomatoes,Pickles,Mayonnaise,None,None,6,6,6,,,,,,0,61,61,72,0,0,0,0,,,,,,,,,,,,,,,,,,,,,,,,,,,,,,,,,['l'],[0.11724609999509994],276.0190885000047,None,275.27078810000967,None,275.27078810000967,None,275.27078810000967,None,275.27078810000967,None,275.27078810000967,None,275.27078810000967,None,275.27078810000967,None,275.27078810000967,None,,,,,,,,,,,,,,,,,,,,,,,,,,Demo Data,2020_Mar_19_1027,trial,3.2.4,59.92455498806974,
Turkey,Ham,Cheddar cheese,Mayonnaise,None,None,None,None,Chicken,Ham,Swiss cheese,Mayonnaise,Mustard,None,None,None,5,4,5,,,,,,0,62,62,37,0,0,0,0,,,,,,,,,,,,,,,,,,,,,,,,,,,,,,,,,['l'],[0.07063339999876916],277.01916480000364,None,276.273414700001,None,276.273414700001,None,276.273414700001,None,276.273414700001,None,276.273414700001,None,276.273414700001,None,276.273414700001,None,276.273414700001,None,,,,,,,,,,,,,,,,,,,,,,,,,,Demo Data,2020_Mar_19_1027,trial,3.2.4,59.92455498806974,
Chicken,Cheddar cheese,Lettuce,Garlic aioli,Swiss cheese,Tomatoes,None,None,Cheddar cheese,Provolone cheese,Swiss cheese,Mushrooms,Mayonnaise,Lettuce,Tomatoes,None,7,6,7,,,,,,0,63,63,6,0,0,0,0,,,,,,,,,,,,,,,,,,,,,,,,,,,,,,,,,['l'],[0.13444979999621864],278.00217999999586,None,277.2481420999975,None,277.2481420999975,None,277.2481420999975,None,277.2481420999975,None,277.2481420999975,None,277.2481420999975,None,277.2481420999975,None,277.2481420999975,None,,,,,,,,,,,,,,,,,,,,,,,,,,Demo Data,2020_Mar_19_1027,trial,3.2.4,59.92455498806974,
Chicken,Swiss cheese,Lettuce,Tomatoes,Onions,None,None,None,Chicken,Cheddar cheese,Lettuce,Garlic aioli,Swiss cheese,Tomatoes,None,None,6,5,6,,,,,,0,64,64,60,0,0,0,0,,,,,,,,,,,,,,,,,,,,,,,,,,,,,,,,,['a'],[0.024892799992812797],279.0186706000095,None,278.2752397000004,None,278.2752397000004,None,278.2752397000004,None,278.2752397000004,None,278.2752397000004,None,278.2752397000004,None,278.2752397000004,None,278.2752397000004,None,,,,,,,,,,,,,,,,,,,,,,,,,,Demo Data,2020_Mar_19_1027,trial,3.2.4,59.92455498806974,
Chicken,American cheese,Lettuce,Tomatoes,Mayonnaise,None,None,None,Cheddar cheese,Avocado,Onions,Tomatoes,Mayonnaise,None,None,None,5,5,5,,,,,,0,65,65,16,0,0,0,0,,,,,,,,,,,,,,,,,,,,,,,,,,,,,,,,,['a'],[0.19905039999866858],279.9352634000097,None,279.1938541999989,None,279.1938541999989,None,279.1938541999989,None,279.1938541999989,None,279.1938541999989,None,279.1938541999989,None,279.1938541999989,None,279.1938541999989,None,,,,,,,,,,,,,,,,,,,,,,,,,,Demo Data,2020_Mar_19_1027,trial,3.2.4,59.92455498806974,
Bacon,Lettuce,Tomatoes,Garlic aioli,Avocado,None,None,None,Ham,Swiss cheese,Spinach,Mustard,None,None,None,None,5,5,4,,,,,,0,66,66,22,0,0,0,0,,,,,,,,,,,,,,,,,,,,,,,,,,,,,,,,,['a'],[0.12268539999786299],281.0185397000023,None,280.27729060000274,None,280.27729060000274,None,280.27729060000274,None,280.27729060000274,None,280.27729060000274,None,280.27729060000274,None,280.27729060000274,None,280.27729060000274,None,,,,,,,,,,,,,,,,,,,,,,,,,,Demo Data,2020_Mar_19_1027,trial,3.2.4,59.92455498806974,
Chicken,Bell peppers,Bacon,Provolone cheese,Ranch dressing,Lettuce,Tomatoes,None,Turkey,Bacon,Pepper jack cheese,Avocado,Ranch dressing,Spinach,Tomatoes,None,7,7,7,,,,,,0,67,67,54,0,0,0,0,,,,,,,,,,,,,,,,,,,,,,,,,,,,,,,,,['a'],[0.21646329999202862],282.0358607000089,None,281.29552420000255,None,281.29552420000255,None,281.29552420000255,None,281.29552420000255,None,281.29552420000255,None,281.29552420000255,None,281.29552420000255,None,281.29552420000255,None,,,,,,,,,,,,,,,,,,,,,,,,,,Demo Data,2020_Mar_19_1027,trial,3.2.4,59.92455498806974,
Mushrooms,Swiss cheese,Provolone cheese,Cheddar cheese,Lettuce,Tomatoes,None,None,Avocado,Spinach,Tomatoes,Swiss cheese,None,None,None,None,6,6,4,,,,,,0,68,68,27,0,0,0,0,,,,,,,,,,,,,,,,,,,,,,,,,,,,,,,,,['a'],[0.1114687000081176],283.15175920000183,None,282.4043082999997,None,282.4043082999997,None,282.4043082999997,None,282.4043082999997,None,282.4043082999997,None,282.4043082999997,None,282.4043082999997,None,282.4043082999997,None,,,,,,,,,,,,,,,,,,,,,,,,,,Demo Data,2020_Mar_19_1027,trial,3.2.4,59.92455498806974,
Chicken,Cheddar cheese,Mayonnaise,None,None,None,None,None,Turkey,Provolone cheese,Pesto,Bell peppers,None,None,None,None,4,3,4,,,,,,0,69,69,5,0,0,0,0,,,,,,,,,,,,,,,,,,,,,,,,,,,,,,,,,['a'],[0.08199109999986831],284.1514668000018,None,283.4050496999989,None,283.4050496999989,None,283.4050496999989,None,283.4050496999989,None,283.4050496999989,None,283.4050496999989,None,283.4050496999989,None,283.4050496999989,None,,,,,,,,,,,,,,,,,,,,,,,,,,Demo Data,2020_Mar_19_1027,trial,3.2.4,59.92455498806974,
Pork,Ham,Swiss cheese,Pickles,Mustard,None,None,None,Chicken,Bacon,Mustard,None,None,None,None,None,5,5,3,,,,,,0,70,70,11,0,0,0,0,,,,,,,,,,,,,,,,,,,,,,,,,,,,,,,,,['a'],[0.08464110000932124],285.11804500001017,None,284.36629150000226,None,284.36629150000226,None,284.36629150000226,None,284.36629150000226,None,284.36629150000226,None,284.36629150000226,None,284.36629150000226,None,284.36629150000226,None,,,,,,,,,,,,,,,,,,,,,,,,,,Demo Data,2020_Mar_19_1027,trial,3.2.4,59.92455498806974,
Turkey,Ham,Roast beef,Provolone cheese,Spinach,Tomatoes,Mayonnaise,Mustard,Ham,Swiss cheese,Mayonnaise,Mustard,Tomatoes,None,None,None,8,8,5,,,,,,0,71,71,30,0,0,0,0,,,,,,,,,,,,,,,,,,,,,,,,,,,,,,,,,['a'],[0.03344030000152998],286.10101569999824,None,285.3529549000086,None,285.3529549000086,None,285.3529549000086,None,285.3529549000086,None,285.3529549000086,None,285.3529549000086,None,285.3529549000086,None,285.3529549000086,None,,,,,,,,,,,,,,,,,,,,,,,,,,Demo Data,2020_Mar_19_1027,trial,3.2.4,59.92455498806974,
Tomatoes,Mozzarella cheese,Spinach,Pesto,None,None,None,None,Steak,Bacon,American cheese,Tomatoes,Onions,Pickles,None,None,6,4,6,,,,,,0,72,72,68,0,0,0,0,,,,,,,,,,,,,,,,,,,,,,,,,,,,,,,,,['a'],[0.11747740001010243],287.0341641999985,None,286.2818239000044,None,286.2818239000044,None,286.2818239000044,None,286.2818239000044,None,286.2818239000044,None,286.2818239000044,None,286.2818239000044,None,286.2818239000044,None,,,,,,,,,,,,,,,,,,,,,,,,,,Demo Data,2020_Mar_19_1027,trial,3.2.4,59.92455498806974,
Chicken,Lettuce,Tomatoes,Mayonnaise,None,None,None,None,Pepperoni,Meatballs,Marinara sauce,Provolone cheese,Mushrooms,None,None,None,5,4,5,,,,,,0,73,73,77,0,0,0,0,,,,,,,,,,,,,,,,,,,,,,,,,,,,,,,,,['a'],[0.11942219999036752],288.0344349000079,None,287.29280320000544,None,287.29280320000544,None,287.29280320000544,None,287.29280320000544,None,287.29280320000544,None,287.29280320000544,None,287.29280320000544,None,287.29280320000544,None,,,,,,,,,,,,,,,,,,,,,,,,,,Demo Data,2020_Mar_19_1027,trial,3.2.4,59.92455498806974,
Chicken,Bell peppers,Bacon,Provolone cheese,Ranch dressing,Lettuce,Tomatoes,None,Pastrami,Cheddar cheese,Mustard,Pickles,None,None,None,None,7,7,4,,,,,,0,74,74,36,0,0,0,0,,,,,,,,,,,,,,,,,,,,,,,,,,,,,,,,,['a'],[0.08680699999968056],289.0841083999985,None,288.35645400000794,None,288.35645400000794,None,288.35645400000794,None,288.35645400000794,None,288.35645400000794,None,288.35645400000794,None,288.35645400000794,None,288.35645400000794,None,,,,,,,,,,,,,,,,,,,,,,,,,,Demo Data,2020_Mar_19_1027,trial,3.2.4,59.92455498806974,
Spinach,Tomatoes,Cucumbers,Onions,Bell peppers,Avocado,Mayonnaise,None,Turkey,Provolone cheese,Spinach,Garlic aioli,None,None,None,None,7,7,4,,,,,,0,75,75,49,0,0,0,0,,,,,,,,,,,,,,,,,,,,,,,,,,,,,,,,,['a'],[0.14176150001003407],290.06740379999974,None,289.3304235999967,None,289.3304235999967,None,289.3304235999967,None,289.3304235999967,None,289.3304235999967,None,289.3304235999967,None,289.3304235999967,None,289.3304235999967,None,,,,,,,,,,,,,,,,,,,,,,,,,,Demo Data,2020_Mar_19_1027,trial,3.2.4,59.92455498806974,
Bacon,Provolone cheese,Mushrooms,Parmesan cheese,None,None,None,None,Turkey,Bacon,Jalapenos,Lettuce,Avocado,Garlic aioli,Tomatoes,None,7,4,7,,,,,,0,76,76,41,0,0,0,0,,,,,,,,,,,,,,,,,,,,,,,,,,,,,,,,,['a'],[0.07504830000107177],291.10040399999707,None,290.36254349999945,None,290.36254349999945,None,290.36254349999945,None,290.36254349999945,None,290.36254349999945,None,290.36254349999945,None,290.36254349999945,None,290.36254349999945,None,,,,,,,,,,,,,,,,,,,,,,,,,,Demo Data,2020_Mar_19_1027,trial,3.2.4,59.92455498806974,
Chicken,Ham,Swiss cheese,Mayonnaise,None,None,None,None,Pepperoni,Meatballs,Marinara sauce,Provolone cheese,Mushrooms,None,None,None,5,4,5,,,,,,0,77,77,8,0,0,0,0,,,,,,,,,,,,,,,,,,,,,,,,,,,,,,,,,['a'],[0.045803800006979145],292.06703689999995,None,291.31729279999854,None,291.31729279999854,None,291.31729279999854,None,291.31729279999854,None,291.31729279999854,None,291.31729279999854,None,291.31729279999854,None,291.31729279999854,None,,,,,,,,,,,,,,,,,,,,,,,,,,Demo Data,2020_Mar_19_1027,trial,3.2.4,59.92455498806974,
Avocado,Spinach,Tomatoes,Swiss cheese,None,None,None,None,Chicken,Ham,Swiss cheese,Mayonnaise,Mustard,None,None,None,5,4,5,,,,,,0,78,78,57,0,0,0,0,,,,,,,,,,,,,,,,,,,,,,,,,,,,,,,,,['a'],[0.08969710000383202],292.9836950000026,None,292.2523336000013,None,292.2523336000013,None,292.2523336000013,None,292.2523336000013,None,292.2523336000013,None,292.2523336000013,None,292.2523336000013,None,292.2523336000013,None,,,,,,,,,,,,,,,,,,,,,,,,,,Demo Data,2020_Mar_19_1027,trial,3.2.4,59.92455498806974,
Turkey,Bacon,Pepper jack cheese,Avocado,Ranch dressing,Spinach,Tomatoes,None,Chicken,Bacon,Cheddar cheese,Swiss cheese,Spinach,Tomatoes,Mayonnaise,Mustard,8,7,8,,,,,,0,79,79,18,0,0,0,0,,,,,,,,,,,,,,,,,,,,,,,,,,,,,,,,,['a'],[0.12292619999789167],293.966932299998,None,293.21626919999835,None,293.21626919999835,None,293.21626919999835,None,293.21626919999835,None,293.21626919999835,None,293.21626919999835,None,293.21626919999835,None,293.21626919999835,None,,,,,,,,,,,,,,,,,,,,,,,,,,Demo Data,2020_Mar_19_1027,trial,3.2.4,59.92455498806974,
,,,,,,,,,,,,,,,,,,,,,,,,,,,,,,,,,,,,,,,,,,,,,,,,,,,,,,,,,,,,,,,,,,,,,,,,,,,,,,,,,,,,,,294.1649696000095,None,space,6.876986600007513,294.1649696000095,None,,,,,,,,,,,,,,,,,,Demo Data,2020_Mar_19_1027,trial,3.2.4,59.92455498806974,
,,,,,,,,,,,,,,,,,,,Provolone cheese,,,,,,,,,,,,,,,,,0,0,0,8,,,,,,,,,,,,,,,,,,,,,,,,,,,,,,,,,,,,,,,,,,,,,,,,,,,,,301.1545959000068,None,1.0,5.34857539999939,301.1545959000068,None,space,5.74324670000351,301.1545959000068,None,,,,,,,,Demo Data,2020_Mar_19_1027,trial,3.2.4,59.92455498806974,
,,,,,,,,,,,,,,,,,,,Cheddar cheese,,,,,,,,,,,,,,,,,0,1,1,5,,,,,,,,,,,,,,,,,,,,,,,,,,,,,,,,,,,,,,,,,,,,,,,,,,,,,306.96196990000317,None,5.0,0.7007651000021724,306.96196990000317,None,space,0.8691359999938868,306.96196990000317,None,,,,,,,,Demo Data,2020_Mar_19_1027,trial,3.2.4,59.92455498806974,
,,,,,,,,,,,,,,,,,,,Lettuce,,,,,,,,,,,,,,,,,0,2,2,7,,,,,,,,,,,,,,,,,,,,,,,,,,,,,,,,,,,,,,,,,,,,,,,,,,,,,307.8868768000102,None,6.0,0.39225780000560917,307.8868768000102,None,space,0.5419477000104962,307.8868768000102,None,,,,,,,,Demo Data,2020_Mar_19_1027,trial,3.2.4,59.92455498806974,
,,,,,,,,,,,,,,,,,,,Swiss cheese,,,,,,,,,,,,,,,,,0,3,3,6,,,,,,,,,,,,,,,,,,,,,,,,,,,,,,,,,,,,,,,,,,,,,,,,,,,,,308.4782845000009,None,7.0,0.46724310000718106,308.4782845000009,None,space,0.6224644999892917,308.4782845000009,None,,,,,,,,Demo Data,2020_Mar_19_1027,trial,3.2.4,59.92455498806974,
,,,,,,,,,,,,,,,,,,,Tomatoes,,,,,,,,,,,,,,,,,0,4,4,0,,,,,,,,,,,,,,,,,,,,,,,,,,,,,,,,,,,,,,,,,,,,,,,,,,,,,309.1605317000067,None,4.0,0.43610209999314975,309.1605317000067,None,space,0.6013056000083452,309.1605317000067,None,,,,,,,,Demo Data,2020_Mar_19_1027,trial,3.2.4,59.92455498806974,
,,,,,,,,,,,,,,,,,,,Spinach,,,,,,,,,,,,,,,,,0,5,5,9,,,,,,,,,,,,,,,,,,,,,,,,,,,,,,,,,,,,,,,,,,,,,,,,,,,,,309.80890089999593,None,5.0,0.34077340000658296,309.80890089999593,None,space,0.5616005999909248,309.80890089999593,None,,,,,,,,Demo Data,2020_Mar_19_1027,trial,3.2.4,59.92455498806974,
,,,,,,,,,,,,,,,,,,,Mayonnaise,,,,,,,,,,,,,,,,,0,6,6,1,,,,,,,,,,,,,,,,,,,,,,,,,,,,,,,,,,,,,,,,,,,,,,,,,,,,,310.42921420000494,None,2.0,0.3495475000090664,310.42921420000494,None,space,0.5738522000028752,310.42921420000494,None,,,,,,,,Demo Data,2020_Mar_19_1027,trial,3.2.4,59.92455498806974,
,,,,,,,,,,,,,,,,,,,Chicken,,,,,,,,,,,,,,,,,0,7,7,4,,,,,,,,,,,,,,,,,,,,,,,,,,,,,,,,,,,,,,,,,,,,,,,,,,,,,311.06114069999603,None,6.0,0.3835992999956943,311.06114069999603,None,space,0.5523004999995464,311.06114069999603,None,,,,,,,,Demo Data,2020_Mar_19_1027,trial,3.2.4,59.92455498806974,
,,,,,,,,,,,,,,,,,,,Turkey,,,,,,,,,,,,,,,,,0,8,8,2,,,,,,,,,,,,,,,,,,,,,,,,,,,,,,,,,,,,,,,,,,,,,,,,,,,,,311.6605933000101,None,4.0,0.6026612999994541,311.6605933000101,None,space,0.7169374000077369,311.6605933000101,None,,,,,,,,Demo Data,2020_Mar_19_1027,trial,3.2.4,59.92455498806974,
,,,,,,,,,,,,,,,,,,,Bacon,,,,,,,,,,,,,,,,,0,9,9,3,,,,,,,,,,,,,,,,,,,,,,,,,,,,,,,,,,,,,,,,,,,,,,,,,,,,,312.43626050000603,None,4.0,0.4411992000095779,312.43626050000603,None,space,0.5347614999918733,312.43626050000603,None,,,,,,,,Demo Data,2020_Mar_19_1027,trial,3.2.4,59.92455498806974,
,,,,,,,,,,,,,,,,,,,,,,,,,,,,,,,,,,,,,,,,,,,,,,,,,,,,,,,,,,,,,,,,,,,,,,,,,,,,,,,,,,,,,,,,,,,,,,,,,,,,,,312.9988902000041,None,return,2.9877937999990536,312.9988902000041,None,,Demo Data,2020_Mar_19_1027,trial,3.2.4,59.92455498806974,
,,,,,,,,,,,,,,,,,,,,,,,,,,,,,,,,,,,,,,,,,,,,,,,,,,,,,,,,,,,,,,,,,,,,,,,,,,,,,,,,,,,,,,,,,,,,,,,,,,,,,,,,,,,,"[0 1 1 0 1 1 0 1 0 0 0 1 1 1 1 1 1 0 0 0 1 1 0 0 1 0 0 0 0 0 1 1 1 0 0 0 0
 1 0 1 1 1 0 1 0 0 0 1 1 0 1 0 1 0 1 0 1 0 0 1 0 0 0 0 0 0 0 1 0 1 1 1 0 1
 0 0 1 0 1 1]",,,,,,
